> # --------------------------------------------------------------------------------
> # Genentech: ADS Programmer Coding Assessment
> # Author: Jay Sminchak
> # Date: 05/2026
> # Question 3 Part 1: AE Table
> # --------------------------------------------------------------------------------
> rm(list = ls()) # Clears the environment to ensure code runs properly from the top
> 
> # --------------------------------------------------------------------------------
> ### Libraries ####
> # --------------------------------------------------------------------------------
> library(tidyverse)        # Data manipulation packages
── Attaching core tidyverse packages ──────────────────────────── tidyverse 2.0.0 ──
✔ dplyr     1.1.4     ✔ readr     2.1.5
✔ forcats   1.0.1     ✔ stringr   1.5.1
✔ ggplot2   4.0.1     ✔ tibble    3.3.0
✔ lubridate 1.9.4     ✔ tidyr     1.3.1
✔ purrr     1.1.0     
── Conflicts ────────────────────────────────────────────── tidyverse_conflicts() ──
✖ dplyr::filter() masks stats::filter()
✖ dplyr::lag()    masks stats::lag()
ℹ Use the conflicted package to force all conflicts to become errors
Warning messages:
1: package ‘tidyverse’ was built under R version 4.4.3 
2: package ‘ggplot2’ was built under R version 4.4.3 
3: package ‘tibble’ was built under R version 4.4.3 
4: package ‘tidyr’ was built under R version 4.4.3 
5: package ‘readr’ was built under R version 4.4.3 
6: package ‘purrr’ was built under R version 4.4.3 
7: package ‘dplyr’ was built under R version 4.4.3 
8: package ‘stringr’ was built under R version 4.4.3 
9: package ‘forcats’ was built under R version 4.4.3 
10: package ‘lubridate’ was built under R version 4.4.3 
> library(gtsummary)        # Creates descriptive tables/listings
Warning message:
package ‘gtsummary’ was built under R version 4.4.3 
> library(gt)               # Customized gtsummary tables, exports as HTML
Warning message:
package ‘gt’ was built under R version 4.4.3 
> library(pharmaverseadam)  # Contains ADaM datasets
Warning message:
package ‘pharmaverseadam’ was built under R version 4.4.3 
> library(here)             # contributes to export reproduceability, sets project root
here() starts at C:/Genentech_ADS_Programmer/Sminchak-Jay-ADS-Programmer-Assessment
Warning message:
package ‘here’ was built under R version 4.4.3 
> 
> # datasets
> adsl <- pharmaverseadam::adsl
> adae <- pharmaverseadam::adae
> 
> # --------------------------------------------------------------------------------
> ### Pre-processing ####
> # --------------------------------------------------------------------------------
> # Filter to TEAEs
> adae <- adae %>%  
+   filter(TRTEMFL == "Y")
> 
> # Filter ADSL population to reflect safety population, accurate total column and denominator
> adsl <- adsl %>% 
+   filter(
+     SAFFL == "Y"  # Filters out subjects who did not receive any treatment dose
+   )
> 
> 
> # --------------------------------------------------------------------------------
> ### Creating the table ####
> # --------------------------------------------------------------------------------
> tbl <- adae %>%
+   tbl_hierarchical(
+     variables = c(AESOC, AETERM),
+     by = ACTARM,                # stratified by treatment arm
+     id = USUBJID,
+     denominator = adsl,
+     overall_row = TRUE,
+     label       = list("..ard_hierarchical_overall.." ~ "Treatment Emergent AEs"),
+   ) %>% 
+   modify_caption(   # creates table title
+     "**Table 10:** Treatment-Emergent Adverse Events by Primary System Organ Class Reported Term"
+   ) %>%
+   add_overall(     # Adds total column
+     last = TRUE, 
+     col_label = "**Total**<br>N&nbsp;=&nbsp;{n}"  # Changing "overall" to "total" 
+   ) %>% 
+   modify_table_styling(
+     column = all_stat_cols(), 
+     align = "center"        # Standard for AE tables
+   ) %>% 
+   modify_spanning_header(
+     all_stat_cols() ~ "**Treatment Group**"
+   ) %>%
+   modify_footnote(
+     all_stat_cols() ~ "n, (%) - Percentages are based on the number of subjects in the Safety Population (N)."
+   ) %>%
+   sort_hierarchical()      # ensures table is sorted by descending frequency
> tbl 
> 
> # --------------------------------------------------------------------------------
> ### Exporting as HTML ####
> # --------------------------------------------------------------------------------
> tbl %>% as_gt() %>%
+   gtsave(here("question_3_tlg", "ae_summary_table.html"))